File: TimeKAN-main/dataset/dwt batterydata.csv
date,Capacity,Charge_V_kurtosis,Charge_Q,Charge_energy,CC_energy,CC_t_mean,CC_CCCT,CC_Q,Var12,Var13,Var15,MS_discharge_capacity_Ah_ma_5,MS_discharge_capacity_Ah_slope_20,PS_mean_dist,Cycle,Target
2025/1/1,1.285,1.91248,1.97643,7.75587,6.50844,12.6,25.191,1.6794,60.2048,4.46347,8.18936,0,0,0,1,1
2025/1/3,1.867,1.89365,1.87363,7.35884,6.13299,11.8591,23.726,1.58174,60.3622,4.87477,41.5778,0,0,0,3,0.939729
2025/1/5,1.879,1.85141,1.8849,7.39677,6.17397,11.9511,23.906,1.59374,60.2966,4.8516,41.6441,1.897,0,0,5,0.945756
2025/1/7,1.89,1.82155,1.89421,7.42868,6.20766,12.0245,24.052,1.60348,60.2387,4.86387,41.7272,1.8822,0,0.0866474,7,0.950276
2025/1/9,1.899,1.79606,1.90263,7.45781,6.23783,12.089,24.182,1.61214,60.1892,4.87888,41.7886,1.8922,0,0.0570676,9,0.954797
2025/1/11,1.901,1.79732,1.90527,7.46854,6.24307,12.0978,24.202,1.61348,60.1809,4.89813,41.7867,1.8986,0,0.0463438,11,0.955801
2025/1/13,1.911,1.77957,1.91499,7.50198,6.27939,12.1783,24.358,1.62388,60.1291,4.94219,41.9728,1.9054,0,0.0420863,13,0.960824
2025/1/15,1.918,1.76935,1.92145,7.52471,6.30159,12.234,24.453,1.63021,60.086,4.96348,42.0267,1.9126,0,0.0407178,15,0.96434
2025/1/17,1.924,1.75985,1.92702,7.54425,6.31787,12.2617,24.525,1.63501,60.0417,4.98084,42.0747,1.9198,0,0.0412902,17,0.967353
2025/1/19,1.93,1.75499,1.93187,7.56148,6.33404,12.2911,24.594,1.63961,60.0116,5.00295,42.1161,1.9254,0,0.0423331,19,0.969362
2025/1/21,1.934,1.74673,1.9375,7.58048,6.35348,12.3375,24.68,1.64535,59.9433,5.02761,42.0872,1.9306,0.00361278,0.0436009,21,0.972376
2025/1/23,1.94,1.74646,1.94147,7.59459,6.36521,12.364,24.731,1.64874,59.9075,5.05608,42.1252,1.9354,0.00323835,0.0449488,23,0.974385
2025/1/25,1.943,1.74793,1.94484,7.60647,6.37354,12.3823,24.769,1.65127,59.8743,5.07738,42.1501,1.94,0.00297068,0.0463769,25,0.976394
2025/1/27,1.947,1.74665,1.94813,7.61786,6.38849,12.4152,24.831,1.6554,59.8504,5.09972,42.1796,1.9436,0.00273759,0.0476821,27,0.977901
2025/1/29,1.949,1.75086,1.9504,7.62621,6.39317,12.4294,24.852,1.6568,59.823,5.12215,42.2046,1.9466,0.00253233,0.0487856,29,0.978905
2025/1/31,1.951,1.75484,1.95227,7.63302,6.3988,12.4371,24.876,1.65839,59.8033,5.13979,42.2178,1.949,0.00216692,0.0496318,31,0.97991
2025/2/2,1.954,1.75929,1.9545,7.64092,6.40653,12.4545,24.909,1.66059,59.7791,5.15935,42.2358,1.951,0.00189173,0.0430666,33,0.980914
2025/2/4,1.955,1.76157,1.9566,7.64819,6.4134,12.4711,24.939,1.66259,59.7604,5.1797,42.2472,1.953,0.00165564,0.0387918,35,0.981919
2025/2/6,1.958,1.7617,1.95912,7.65631,6.4185,12.4819,24.966,1.66439,59.7345,5.19681,42.2688,1.9554,0.00148271,0.0349647,37,0.983425
2025/2/8,1.959,1.7665,1.96007,7.65996,6.42346,12.4919,24.985,1.66565,59.7277,5.20448,42.2796,1.9574,0.00128797,0.0312209,39,0.983928
2025/2/10,1.961,1.76786,1.96157,7.66503,6.42505,12.4953,24.995,1.66632,59.6954,5.22168,42.291,1.959,0.00113684,0.0276521,41,0.98443
2025/2/12,1.962,1.77534,1.96223,7.66759,6.42621,12.5017,25,1.66665,59.68,5.23596,42.2999,1.9602,0.00100902,0.0243341,43,0.984932
2025/2/14,1.96,1.7808,1.96212,7.66784,6.42416,12.4962,24.99,1.66599,59.6955,5.24024,42.2872,1.9606,0.000868421,0.0214026,45,0.984932
2025/2/16,1.962,1.78272,1.96288,7.67095,6.42462,12.4947,24.992,1.66612,59.6715,5.25465,42.2993,1.9608,0.000734586,0.0185963,47,0.984932
2025/2/18,1.969,1.79032,1.96539,7.67883,6.43403,12.5174,25.035,1.66899,59.5826,5.29798,42.3559,1.9632,0.000742105,0.0163845,49,0.987443
2025/2/20,1.964,1.79648,1.96379,7.6745,6.42661,12.5001,25,1.66666,59.6535,5.28074,42.3097,1.964,0.000613534,0.0145436,51,0.985937
2025/2/22,1.963,1.80068,1.96304,7.67252,6.41965,12.4858,24.971,1.66472,59.6638,5.28492,42.2994,1.9632,0.000448872,0.0131019,53,0.985434
2025/2/24,1.963,1.80111,1.9628,7.67188,6.41975,12.4864,24.97,1.66466,59.6597,5.29287,42.2974,1.9622,0.000293233,0.0113727,55,0.985434
2025/2/26,1.966,1.80164,1.96596,7.681,6.43017,12.5111,25.022,1.66813,59.6075,5.31578,42.3231,1.9632,0.000274436,0.00987606,57,0.987443
2025/2/28,1.965,1.80137,1.96871,7.68949,6.44252,12.539,25.077,1.67179,59.6009,5.32343,42.3328,1.9646,0.000257895,0.00866851,59,0.987946
2025/3/2,1.969,1.8078,1.96719,7.68517,6.43309,12.5174,25.036,1.66906,59.5531,5.35019,42.3446,1.9664,0.000300752,0.00783527,61,0.987946
2025/3/4,1.967,1.81173,1.96484,7.67846,6.42282,12.4957,24.988,1.66586,59.572,5.35318,42.3274,1.9666,0.00027594,0.00714387,63,0.986439
2025/3/6,1.965,1.81721,1.96428,7.67692,6.41969,12.4853,24.974,1.66493,59.6136,5.34415,42.3053,1.9652,0.000168421,0.00656126,65,0.986439
2025/3/8,1.964,1.81926,1.963,7.67324,6.413,12.4722,24.944,1.66293,59.5952,5.35363,42.297,1.9634,1.57895e-05,0.00597725,67,0.985434
2025/3/10,1.963,1.81371,1.96682,7.6839,6.42695,12.5052,25.013,1.66753,59.5916,5.36024,42.3096,1.9632,6.69173e-05,0.00552217,69,0.986941
2025/3/12,1.969,1.8213,1.96781,7.6871,6.4296,12.5157,25.026,1.66839,59.5197,5.39358,42.3429,1.9648,0.000124812,0.00533871,71,0.987946
2025/3/14,1.968,1.82784,1.9675,7.68647,6.42634,12.5086,25.012,1.66746,59.519,5.40131,42.326,1.9668,0.000109774,0.00523885,73,0.987946
2025/3/16,1.967,1.83297,1.96615,7.68287,6.41805,12.4872,24.975,1.66499,59.5134,5.40691,42.3004,1.9664,2.33083e-05,0.00510216,75,0.986941
2025/3/18,1.966,1.83647,1.96556,7.68092,6.4113,12.4738,24.949,1.66326,59.529,5.4101,42.2964,1.9656,7.5188e-07,0.00487787,77,0.986941
2025/3/20,1.965,1.83931,1.9644,7.67739,6.40622,12.4632,24.926,1.66172,59.5297,5.41577,42.2848,1.9646,-3.31E-05,0.00463059,79,0.986439
2025/3/22,1.965,1.83637,1.96539,7.67993,6.4138,12.4806,24.959,1.66392,59.515,5.42342,42.2875,1.964,-1.50E-06,0.0044287,81,0.986439
2025/3/24,1.966,1.83969,1.97218,7.69902,6.44302,12.5484,25.097,1.67312,59.5106,5.43723,42.3211,1.9654,0.000115038,0.00442659,83,0.989955
2025/3/26,1.969,1.84483,1.96625,7.68221,6.41247,12.4811,24.959,1.66392,59.4368,5.46595,42.3106,1.967,0.000144361,0.00456549,85,0.987443
2025/3/28,1.965,1.85186,1.96379,7.67518,6.40289,12.4576,24.913,1.66085,59.491,5.45104,42.2812,1.9666,-3.01E-06,0.0047616,87,0.985937
2025/3/30,1.963,1.85752,1.96228,7.67086,6.39428,12.4382,24.875,1.65832,59.4898,5.45275,42.2658,1.9632,-0.000180451,0.00491632,89,0.984932
2025/4/1,1.962,1.85285,1.96111,7.66673,6.38948,12.4272,24.855,1.65699,59.5136,5.45031,42.2522,1.9614,-0.000237594,0.00522849,91,0.98443
2025/4/3,1.961,1.85828,1.96023,7.66406,6.38321,12.4147,24.829,1.65525,59.5197,5.45574,42.2449,1.9602,-0.000296992,0.00578179,93,0.983928
2025/4/5,1.961,1.85774,1.95997,7.66324,6.37985,12.4091,24.816,1.65438,59.4874,5.46954,42.2454,1.9596,-0.00036015,0.00635099,95,0.983928
2025/4/7,1.961,1.86332,1.96128,7.66658,6.3844,12.4214,24.84,1.65598,59.4601,5.47972,42.2501,1.9596,-0.000390226,0.00672607,97,0.98443
2025/4/9,1.96,1.86971,1.95993,7.66267,6.38196,12.4142,24.825,1.65498,59.4908,5.48062,42.2434,1.9596,-0.000437594,0.00685222,99,0.983928
2025/4/11,1.959,1.87303,1.95748,7.65559,6.36977,12.3859,24.77,1.65132,59.512,5.47776,42.2227,1.9588,-0.000529323,0.00697006,101,0.982923
2025/4/13,1.956,1.87467,1.95555,7.64933,6.3618,12.3651,24.735,1.64898,59.4973,5.48299,42.2054,1.957,-0.000493985,0.00731231,103,0.981919
2025/4/15,1.955,1.87611,1.95721,7.65397,6.36451,12.3753,24.753,1.65018,59.5301,5.47834,42.2006,1.9556,-0.000404511,0.00783817,105,0.982421
2025/4/17,1.959,1.87874,1.95908,7.65886,6.37217,12.3958,24.791,1.65271,59.4621,5.50618,42.2284,1.9562,-0.000293985,0.00827272,107,0.983425
2025/4/19,1.958,1.87743,1.95906,7.65825,6.3739,12.3971,24.799,1.65325,59.4452,5.51343,42.2311,1.9576,-0.000216541,0.00830956,109,0.983425
2025/4/21,1.958,1.88062,1.95661,7.65075,6.35877,12.3682,24.735,1.64898,59.4396,5.52265,42.215,1.9574,-0.000192481,0.00733498,111,0.982421
2025/4/23,1.956,1.88614,1.95524,7.6466,6.35419,12.3565,24.713,1.64751,59.4603,5.5175,42.1998,1.9562,-0.000217293,0.00623124,113,0.981919
2025/4/25,1.955,1.89203,1.95402,7.64281,6.34851,12.3444,24.688,1.64585,59.4674,5.52216,42.1887,1.9546,-0.000256391,0.00529337,115,0.980914
2025/4/27,1.953,1.88851,1.95456,7.64363,6.35155,12.3515,24.704,1.64691,59.4781,5.52116,42.1795,1.9534,-0.000269173,0.00515613,117,0.980914
2025/4/29,1.957,1.89059,1.95719,7.65053,6.36084,12.3741,24.752,1.65011,59.4087,5.54735,42.2109,1.9538,-0.000171429,0.00522912,119,0.982421
2025/5/1,1.956,1.88779,1.95661,7.64809,6.36,12.3749,24.749,1.64991,59.408,5.55095,42.2032,1.955,-0.000115789,0.00524328,121,0.982421
2025/5/3,1.956,1.88749,1.95567,7.64466,6.35631,12.369,24.734,1.64891,59.375,5.56779,42.2073,1.9554,-0.000128571,0.00496314,123,0.981919
2025/5/5,1.955,1.88938,1.95399,7.63943,6.34807,12.3482,24.698,1.64651,59.3804,5.56727,42.1938,1.9546,-0.000198496,0.00459608,125,0.980914
2025/5/7,1.954,1.8924,1.95304,7.63636,6.34004,12.3321,24.666,1.64438,59.3834,5.56922,42.1815,1.9534,-0.000185714,0.00429821,127,0.980412
2025/5/9,1.953,1.89862,1.95168,7.63241,6.33231,12.3159,24.632,1.64211,59.3921,5.56913,42.1724,1.9522,-0.000166917,0.00424322,129,0.97991
2025/5/11,1.952,1.8915,1.9522,7.63249,6.33494,12.3237,24.649,1.64325,59.3608,5.57604,42.1721,1.9514,-0.000170677,0.00450309,131,0.97991
2025/5/13,1.952,1.8925,1.95263,7.63299,6.34006,12.3356,24.672,1.64478,59.3564,5.58128,42.1755,1.9512,-0.000177444,0.0047535,133,0.980412
2025/5/15,1.952,1.89297,1.95123,7.62842,6.33524,12.3234,24.65,1.64331,59.3533,5.58605,42.1665,1.9512,-0.000226316,0.00475074,135,0.97991
2025/5/17,1.951,1.90361,1.9495,7.62378,6.32385,12.3004,24.6,1.63998,59.3611,5.58597,42.1538,1.9506,-0.00033609,0.00459114,137,0.978905
2025/5/19,1.949,1.9084,1.94741,7.61734,6.31192,12.2748,24.549,1.63658,59.3878,5.58419,42.1372,1.949,-0.000382707,0.00466279,139,0.977901
2025/5/21,1.947,1.90131,1.94614,7.61279,6.30628,12.2627,24.526,1.63505,59.4018,5.58126,42.1166,1.947,-0.000435338,0.00517162,141,0.976896
2025/5/23,1.949,1.90058,1.95047,7.62389,6.32969,12.317,24.635,1.64232,59.3572,5.59243,42.1507,1.9468,-0.000373684,0.00587744,143,0.978905
2025/5/25,1.949,1.90468,1.94846,7.6178,6.31919,12.2953,24.589,1.63925,59.3464,5.59704,42.1368,1.9474,-0.000320301,0.00640282,145,0.978403
2025/5/27,1.947,1.90835,1.94691,7.61274,6.30887,12.2723,24.547,1.63645,59.3557,5.59724,42.1292,1.9476,-0.000308271,0.00645027,147,0.977398
2025/5/29,1.946,1.90861,1.94511,7.60721,6.30054,12.2562,24.51,1.63399,59.3419,5.59842,42.1133,1.9462,-0.000334586,0.00633506,149,0.976394
2025/5/31,1.944,1.91403,1.94341,7.60199,6.29349,12.2385,24.478,1.63185,59.3697,5.59423,42.0946,1.9446,-0.000378947,0.00625739,151,0.975892
2025/6/2,1.942,1.91646,1.94177,7.59703,6.28366,12.2164,24.436,1.62905,59.3733,5.59413,42.0779,1.9428,-0.000416541,0.00641887,153,0.974887
2025/6/4,1.944,1.89437,1.9477,7.61176,6.31717,12.2938,24.592,1.63945,59.3601,5.59697,42.1092,1.9428,-0.000338346,0.00665189,155,0.977398
2025/6/6,1.95,1.90273,1.94941,7.61578,6.32663,12.3191,24.637,1.64245,59.2343,5.62869,42.1633,1.9454,-0.000134586,0.00687332,157,0.978905
2025/6/8,1.948,1.90111,1.94661,7.60735,6.3137,12.2892,24.579,1.63858,59.2563,5.62258,42.1363,1.9474,-6.24E-05,0.00669966,159,0.977398
2025/6/10,1.946,1.90396,1.94505,7.60235,6.30293,12.2669,24.535,1.63565,59.2739,5.61829,42.1179,1.9462,-0.000104511,0.00623727,161,0.976394
2025/6/12,1.944,1.90503,1.94363,7.59788,6.2994,12.2593,24.517,1.63445,59.2872,5.61847,42.1046,1.9444,-8.72E-05,0.00572871,163,0.975892
2025/6/14,1.943,1.90726,1.94261,7.59431,6.29424,12.2478,24.496,1.63305,59.2811,5.61635,42.0901,1.943,-8.12E-05,0.00541097,165,0.975389
2025/6/16,1.942,1.90432,1.94259,7.59342,6.29426,12.2511,24.499,1.63325,59.2809,5.61458,42.0869,1.942,-0.000100752,0.00541612,167,0.975389
2025/6/18,1.942,1.90593,1.94195,7.59129,6.28865,12.2383,24.477,1.63178,59.2804,5.62077,42.0884,1.9414,-0.000153383,0.00569365,169,0.974887
2025/6/20,1.941,1.91325,1.93934,7.58364,6.27376,12.2072,24.412,1.62745,59.2814,5.61867,42.0698,1.9408,-0.000260902,0.0058648,171,0.973882
2025/6/22,1.938,1.91778,1.93798,7.5796,6.26509,12.1891,24.375,1.62498,59.3139,5.61356,42.0449,1.9392,-0.000480451,0.00611804,173,0.972878
2025/6/24,1.937,1.91853,1.93629,7.5741,6.25854,12.1734,24.346,1.62305,59.3294,5.61517,42.0339,1.9374,-0.00062406,0.00652085,175,0.972376
2025/6/26,1.936,1.92136,1.93496,7.57,6.2536,12.1611,24.323,1.62152,59.3354,5.61446,42.0194,1.9358,-0.000608271,0.00731227,177,0.971371
2025/6/28,1.934,1.92244,1.93369,7.56578,6.25082,12.1544,24.309,1.62059,59.3392,5.61356,42.0084,1.9344,-0.000614286,0.00833706,179,0.970869
2025/6/30,1.933,1.9227,1.93277,7.56241,6.24181,12.1327,24.275,1.61832,59.3449,5.61152,42.0045,1.933,-0.00064812,0.0095442,181,0.970367
2025/7/2,1.932,1.92632,1.93149,7.55833,6.23159,12.117,24.234,1.61559,59.3833,5.60245,42.0901,1.9318,-0.000666917,0.0102597,183,0.969864
2025/7/4,1.931,1.93529,1.9304,7.55508,6.23208,12.116,24.231,1.61539,59.3974,5.59939,42.0762,1.9308,-0.00068797,0.0104867,185,0.969362
2025/7/6,1.93,1.93318,1.92919,7.55108,6.22561,12.0995,24.204,1.61359,59.4028,5.60224,42.0656,1.9298,-0.000681203,0.0104238,187,0.96886
2025/7/8,1.928,1.9352,1.92794,7.54686,6.2202,12.0961,24.181,1.61206,59.407,5.60088,42.0602,1.9286,-0.000656391,0.0103486,189,0.967855
2025/7/10,1.927,1.93648,1.9267,7.54269,6.21452,12.0813,24.157,1.61045,59.4078,5.60004,42.0374,1.9274,-0.000609023,0.010424,191,0.967353
2025/7/12,1.926,1.93976,1.92586,7.53987,6.20625,12.0631,24.125,1.60832,59.4241,5.60103,42.0366,1.9262,-0.000590977,0.0105193,193,0.966851
2025/7/14,1.925,1.94048,1.92486,7.53635,6.20529,12.0543,24.119,1.60792,59.4197,5.60123,42.0192,1.925,-0.000573684,0.0104934,195,0.966349
2025/7/16,1.924,1.94097,1.92378,7.53271,6.20112,12.0473,24.101,1.60672,59.4189,5.60051,42.0119,1.924,-0.000561654,0.0102045,197,0.965846
2025/7/18,1.923,1.94331,1.92276,7.52927,6.19075,12.0315,24.061,1.60405,59.4307,5.60218,42.0113,1.9232,-0.000543609,0.00979794,199,0.965344
2025/7/20,1.922,1.94534,1.92056,7.52235,6.1819,12.01,24.021,1.60139,59.4267,5.60371,41.9888,1.9218,-0.00056391,0.00943966,201,0.96434
2025/7/22,1.919,1.94925,1.91849,7.51598,6.17246,11.9927,23.979,1.59859,59.4541,5.59926,41.9727,1.92,-0.000602256,0.00936889,203,0.963335
2025/7/24,1.918,1.9573,1.91728,7.51206,6.16436,11.9716,23.946,1.59639,59.4374,5.6076,41.9034,1.9182,-0.000638346,0.00952217,205,0.962833
2025/7/26,1.916,1.96288,1.91503,7.50507,6.15365,11.9501,23.899,1.59325,59.4368,5.60277,41.8381,1.9164,-0.000684962,0.00989317,207,0.961326
2025/7/28,1.914,1.96843,1.91342,7.50027,6.14163,11.9254,23.849,1.58992,59.4584,5.60461,41.8237,1.9148,-0.00073609,0.0103804,209,0.960824
2025/7/30,1.912,1.97191,1.91119,7.49309,6.13232,11.9032,23.808,1.58719,59.4613,5.60288,41.8079,1.9128,-0.000790226,0.0109626,211,0.959819
2025/8/1,1.91,1.98027,1.90962,7.48858,6.12574,11.8888,23.777,1.58512,59.4971,5.60443,41.7958,1.911,-0.000841353,0.0115629,213,0.958815
2025/8/3,1.909,1.98323,1.90752,7.48181,6.11575,11.8671,23.734,1.58225,59.4932,5.60179,41.7732,1.9092,-0.00088797,0.0121508,215,0.95781
2025/8/5,1.907,1.98998,1.90496,7.47375,6.10277,11.8392,23.678,1.57852,59.4896,5.60068,41.7529,1.9074,-0.000908271,0.0127447,217,0.956806
2025/8/7,1.904,1.99542,1.90331,7.46839,6.09644,11.8257,23.65,1.57664,59.531,5.60157,41.7424,1.9054,-0.000909023,0.0133194,219,0.956303
2025/8/9,1.902,1.99969,1.90066,7.45991,6.08566,11.8016,23.602,1.57345,59.5399,5.6028,41.7225,1.9032,-0.000933083,0.0139717,221,0.954797
2025/8/11,1.899,2.00882,1.89772,7.45095,6.0714,11.7688,23.539,1.56925,59.5514,5.60149,41.6951,1.9008,-0.000990226,0.0146543,223,0.95329
2025/8/13,1.896,2.02388,1.89474,7.4419,6.05389,11.7319,23.464,1.56425,59.5776,5.60292,41.6753,1.8978,-0.001058647,0.0153896,225,0.951783
2025/8/15,1.893,2.03352,1.89142,7.43142,6.03915,11.7003,23.399,1.55992,59.6051,5.60206,41.6497,1.895,-0.001130827,0.0161169,227,0.950276
2025/8/17,1.89,2.04468,1.88879,7.42317,6.02715,11.6716,23.346,1.55639,59.6376,5.60102,41.6232,1.892,-0.001215038,0.0169454,229,0.948769
2025/8/19,1.887,2.05975,1.88547,7.41285,6.0117,11.639,23.278,1.55185,59.646,5.6027,41.5941,1.8886,-0.001316541,0.0179522,231,0.94676
2025/8/21,1.884,2.07229,1.88223,7.40275,5.9948,11.6046,23.205,1.54699,59.6758,5.60448,41.5681,1.8854,-0.00141203,0.0190649,233,0.945254
2025/8/23,1.881,2.08176,1.87976,7.39493,5.98446,11.5784,23.159,1.54392,59.6966,5.60485,41.5492,1.8824,-0.00146391,0.020191,235,0.944249
2025/8/25,1.878,2.09405,1.87708,7.38628,5.9714,11.5497,23.103,1.54019,59.7112,5.60695,41.5209,1.8796,-0.001497744,0.0211981,237,0.942742
2025/8/27,1.876,2.09859,1.87466,7.37839,5.96273,11.53,23.064,1.53759,59.7282,5.60044,41.4951,1.8772,-0.001481955,0.0220494,239,0.941738
2025/8/29,1.873,2.10787,1.87249,7.37119,5.95207,11.5095,23.019,1.53459,59.7418,5.60317,41.4762,1.8746,-0.001457895,0.0226722,241,0.940231
2025/8/31,1.871,2.11402,1.87089,7.36579,5.94302,11.4919,22.982,1.53212,59.7579,5.60109,41.4524,1.8722,-0.001412782,0.0229943,243,0.939227
2025/9/2,1.87,2.12411,1.86848,7.35781,5.93397,11.47,22.942,1.52945,59.7506,5.60639,41.4405,1.8702,-0.00133985,0.0230143,245,0.938222
2025/9/4,1.868,2.11572,1.86761,7.35379,5.9308,11.4663,22.932,1.52879,59.7454,5.61368,41.4329,1.8686,-0.001229323,0.0225852,247,0.93772
2025/9/6,1.865,2.14203,1.86438,7.34453,5.91101,11.4225,22.846,1.52305,59.7691,5.61246,41.3974,1.8664,-0.001163158,0.0218999,249,0.936213
2025/9/8,1.863,2.1451,1.86153,7.33456,5.90239,11.405,22.808,1.52052,59.782,5.61359,41.3715,1.864,-0.001130075,0.0211062,251,0.934706
2025/9/10,1.86,2.15747,1.85938,7.32743,5.88946,11.379,22.755,1.51699,59.7903,5.6162,41.3478,1.8614,-0.001118797,0.0203833,253,0.933702
2025/9/12,1.861,2.18231,1.85904,7.32779,5.88284,11.3622,22.725,1.51499,59.8724,5.60033,41.3394,1.8602,-0.001019549,0.0195162,255,0.935208
2025/9/14,1.859,2.21476,1.86223,7.34067,5.87784,11.3522,22.709,1.51393,59.8436,5.60482,41.3567,1.86,-0.000915038,0.0183904,257,0.934204
2025/9/16,1.861,2.24456,1.86139,7.34014,5.86489,11.3253,22.652,1.51013,59.7166,5.62998,40.736,1.8618,-0.000677444,0.0168528,259,0.935711
2025/9/18,1.861,2.25542,1.8587,7.33094,5.85327,11.3014,22.603,1.50686,59.8077,5.62469,40.6923,1.8626,-0.000479699,0.0150879,261,0.935711
2025/9/20,1.858,2.26066,1.85637,7.32296,5.84192,11.2783,22.556,1.50373,59.7947,5.62724,40.6751,1.862,-0.000359398,0.0131807,263,0.934204
2025/9/22,1.855,2.23839,1.84971,7.29598,5.83256,11.2621,22.519,1.50126,59.8026,5.62576,40.6725,1.86,-0.000294737,0.0115583,265,0.933199
2025/9/24,1.848,2.22637,1.84806,7.29076,5.82643,11.2395,22.491,1.4994,59.8374,5.65536,40.9669,1.8546,-0.00047218,0.011225,267,0.928177
2025/9/26,1.848,2.21785,1.84746,7.28735,5.81824,11.2345,22.465,1.49766,59.8227,5.65494,40.9377,1.8504,-0.000634586,0.0116411,269,0.928177
2025/9/28,1.848,2.24693,1.84466,7.27842,5.80202,11.1935,22.397,1.49313,59.8226,5.66055,40.9436,1.8478,-0.00082406,0.0125873,271,0.927172
2025/9/30,1.843,2.26809,1.8422,7.27097,5.79007,11.1723,22.344,1.4896,59.8549,5.66195,40.9161,1.8462,-0.001073684,0.0134765,273,0.926168
2025/10/2,1.841,2.28649,1.84008,7.26462,5.77671,11.1441,22.287,1.4858,59.8845,5.667,40.9007,1.8436,-0.001284211,0.014525,275,0.924661
2025/10/4,1.839,2.27185,1.84045,7.26414,5.77827,11.1534,22.3,1.48666,59.8892,5.66521,40.8624,1.8416,-0.001420301,0.015759,277,0.924661
2025/10/6,1.84,2.29019,1.83869,7.25833,5.76556,11.1273,22.249,1.48326,59.8722,5.66948,40.8803,1.8406,-0.00132406,0.0170457,279,0.924159
2025/10/8,1.836,2.27033,1.83502,7.24329,5.75559,11.1082,22.212,1.48079,59.8705,5.63601,40.8211,1.8392,-0.001202256,0.0183297,281,0.92215
2025/10/10,1.833,2.29863,1.83072,7.22952,5.72856,11.0472,22.1,1.47333,59.8795,5.64297,40.7909,1.8356,-0.001141353,0.019609,283,0.919638
2025/10/12,1.829,2.3277,1.82677,7.21743,5.71265,11.0125,22.027,1.46847,59.8841,5.68865,40.7756,1.8312,-0.001100752,0.0208323,285,0.917629
2025/10/14,1.825,2.36138,1.82325,7.20594,5.69045,10.968,21.936,1.4624,59.9244,5.69861,40.7586,1.8274,-0.001274436,0.0216914,287,0.916123
2025/10/16,1.822,2.32955,1.82412,7.20713,5.69854,10.9639,21.974,1.46492,59.9474,5.69172,40.7343,1.8246,-0.001357895,0.0219692,289,0.916123
2025/10/18,1.824,2.36551,1.82206,7.19982,5.68955,10.9722,21.937,1.46246,59.9063,5.69235,40.7433,1.8236,-0.001312782,0.0215383,291,0.91562
2025/10/20,1.819,2.37763,1.81869,7.18814,5.66515,10.9209,21.841,1.45606,59.9353,5.69755,40.6961,1.8224,-0.001321053,0.0208932,293,0.913611
2025/10/22,1.82,2.3666,1.8179,7.18358,5.66608,10.9261,21.849,1.45658,59.9197,5.65701,40.6634,1.8204,-0.001293985,0.0203425,295,0.913611
2025/10/24,1.814,2.39266,1.81205,7.16445,5.64389,10.8725,21.75,1.44999,59.9313,5.66998,40.6169,1.817,-0.001333083,0.0204571,297,0.910095
2025/10/26,1.81,2.43437,1.80714,7.14803,5.62156,10.8325,21.655,1.44367,59.9416,5.71388,40.6007,1.8128,-0.001329323,0.0210637,299,0.908086
2025/10/28,1.805,2.43532,1.80603,7.14366,5.60441,10.7925,21.593,1.43953,59.9763,5.71617,40.5746,1.8084,-0.001330827,0.0219446,301,0.907082
2025/10/30,1.807,2.42788,1.80655,7.14311,5.61367,10.8212,21.636,1.44239,59.9476,5.7067,40.5923,1.807,-0.001269925,0.0226443,303,0.908086
2025/11/1,1.804,2.46009,1.80278,7.13028,5.5912,10.7758,21.545,1.43632,59.9049,5.68452,40.4064,1.8056,-0.001303759,0.0227972,305,0.905575
2025/11/3,1.799,2.48498,1.79909,7.11693,5.57461,10.7417,21.478,1.43186,59.9178,5.6879,40.3921,1.8028,-0.001397744,0.022434,307,0.903566
2025/11/5,1.798,2.50575,1.7943,7.10007,5.5521,10.6977,21.386,1.42572,60.009,5.7332,40.4795,1.7988,-0.001503008,0.0221487,309,0.901557
2025/11/7,1.791,2.52033,1.78981,7.08366,5.53272,10.6526,21.308,1.42053,60.0008,5.73448,40.427,1.7946,-0.001545113,0.022408,311,0.899046
2025/11/9,1.788,2.52671,1.78638,7.07039,5.52378,10.6395,21.272,1.41813,59.9991,5.73528,40.4061,1.7904,-0.001615038,0.0232989,313,0.897539
2025/11/11,1.785,2.53946,1.78237,7.05451,5.50039,10.5893,21.185,1.41233,60.0007,5.70611,40.3595,1.7868,-0.001589474,0.0246772,315,0.89553
2025/11/13,1.78,2.56084,1.77639,7.03364,5.48167,10.55,21.103,1.40686,60.019,5.71327,40.3038,1.7828,-0.0017,0.0260182,317,0.892516
2025/11/15,1.774,2.59544,1.77115,7.01477,5.45371,10.497,20.992,1.39946,60.0185,5.71372,40.2623,1.7776,-0.001900752,0.0273202,319,0.890005
2025/11/17,1.769,2.61472,1.76614,6.99597,5.43865,10.4635,20.93,1.39533,60.0261,5.72069,40.2103,1.7722,-0.00212406,0.028584,321,0.887494
2025/11/19,1.764,2.6431,1.7618,6.98022,5.40921,10.4092,20.816,1.38773,60.0409,5.72783,40.1857,1.7672,-0.002208271,0.0299095,323,0.884982
2025/11/21,1.759,2.66305,1.75578,6.9587,5.38527,10.3558,20.717,1.38113,60.0578,5.72619,40.1267,1.7622,-0.002293985,0.0314985,325,0.882471
2025/11/23,1.755,2.67565,1.7524,6.94535,5.37909,10.346,20.692,1.37946,60.0527,5.73301,40.0948,1.7576,-0.002349624,0.0333467,327,0.880462
2025/11/25,1.749,2.69248,1.74742,6.927,5.35314,10.2968,20.59,1.37266,60.0598,5.73302,40.0611,1.7528,-0.002397744,0.0353039,329,0.877951
2025/11/27,1.746,2.70914,1.74451,6.91548,5.33977,10.2708,20.54,1.36933,60.0682,5.73277,40.0277,1.7484,-0.002422556,0.0366251,331,0.876444
2025/11/29,1.741,2.72759,1.73945,6.89662,5.31815,10.231,20.454,1.3636,60.0672,5.7395,39.9929,1.7446,-0.002385714,0.0373112,333,0.874435
2025/12/1,1.735,2.79209,1.7355,6.8841,5.29532,10.1834,20.358,1.3572,60.0863,5.74382,39.9274,1.7398,-0.002362406,0.0376605,335,0.870919
2025/12/3,1.733,2.78058,1.72638,6.84869,5.26073,10.1181,20.224,1.34827,60.1163,5.75315,39.875,1.7342,-0.002359398,0.0380796,337,0.867906
2025/12/5,1.726,2.81118,1.72392,6.8397,5.25224,10.0963,20.189,1.34593,60.0676,5.75861,39.8676,1.729,-0.00236391,0.0385929,339,0.866399
2025/12/7,1.721,2.73561,1.72035,6.82375,5.24678,10.0895,20.173,1.34486,60.0724,5.76072,39.8416,1.7244,-0.002353383,0.0388062,341,0.86439
2025/12/9,1.717,2.81987,1.71701,6.81283,5.22468,10.0387,20.083,1.33887,60.0595,5.76933,39.8108,1.7208,-0.002319549,0.038571,343,0.862883
2025/12/11,1.717,2.85314,1.71447,6.80438,5.20061,10.0008,19.989,1.3326,60.0437,5.77858,39.8093,1.7178,-0.002233083,0.037849,345,0.861376
2025/12/13,1.712,2.88194,1.70929,6.78579,5.19002,9.96873,19.94,1.32933,60.071,5.78232,39.7499,1.7144,-0.002158647,0.0369771,347,0.858865
2025/12/15,1.708,2.90873,1.70537,6.7716,5.17019,9.92953,19.861,1.32407,60.0783,5.79098,39.7163,1.7106,-0.002086466,0.0360307,349,0.857358
2025/12/17,1.704,2.87969,1.7032,6.76155,5.17091,9.93242,19.867,1.32446,60.0789,5.79294,39.6871,1.7068,-0.001990977,0.035156,351,0.855851
2025/12/19,1.701,2.9006,1.69979,6.74912,5.15181,9.89021,19.792,1.31946,60.0542,5.80106,39.6828,1.7036,-0.001829323,0.034143,353,0.854345
2025/12/21,1.697,2.92549,1.69428,6.72871,5.12987,9.84382,19.704,1.31359,60.0433,5.81425,39.6456,1.7,-0.001792481,0.033222,355,0.851331
2025/12/23,1.692,2.93528,1.68921,6.70977,5.11821,9.82349,19.654,1.31026,60.2442,5.79109,40.1715,1.6954,-0.001823308,0.0324707,357,0.84882
2025/12/25,1.688,2.94781,1.68543,6.6956,5.09553,9.78564,19.567,1.30445,60.2216,5.8068,40.145,1.6906,-0.001880451,0.031877,359,0.847313
2025/12/27,1.684,2.97285,1.68153,6.68101,5.08086,9.75305,19.508,1.30052,60.2184,5.81447,40.1048,1.6862,-0.00196391,0.031425,361,0.844802
2025/12/29,1.68,2.95985,1.67971,6.67254,5.07525,9.7396,19.491,1.29939,60.208,5.82054,40.0751,1.6828,-0.001999248,0.031006,363,0.843797
2025/12/31,1.681,2.9525,1.67776,6.66343,5.07124,9.74395,19.48,1.29866,60.1194,5.83223,40.0781,1.6804,-0.001902256,0.030725,365,0.842793
2026/1/2,1.675,2.97646,1.67286,6.64577,5.04843,9.69588,19.388,1.29253,60.1418,5.84025,40.0355,1.6778,-0.00187218,0.0304891,367,0.840784
2026/1/4,1.671,3.00453,1.66888,6.63139,5.0323,9.65936,19.322,1.28813,60.1672,5.84727,40.0006,1.6736,-0.00186015,0.0304583,369,0.838272
2026/1/6,1.667,3.02862,1.66423,6.61441,5.01327,9.62432,19.245,1.283,60.1351,5.84557,39.9369,1.6692,-0.001861654,0.0305083,371,0.836263
2026/1/8,1.662,3.05304,1.65959,6.59761,4.99216,9.57817,19.16,1.27733,60.173,5.8523,39.9133,1.6646,-0.00185188,0.0306927,373,0.833752
2026/1/10,1.658,3.05472,1.65783,6.59069,4.98505,9.56257,19.133,1.27553,60.1821,5.85998,39.8839,1.6604,-0.001856391,0.0308465,375,0.832245
2026/1/12,1.66,3.02465,1.65848,6.59009,4.98929,9.57871,19.16,1.27733,60.1079,5.84657,39.8922,1.6588,-0.001737594,0.0307014,377,0.83325
2026/1/14,1.657,3.06385,1.65602,6.58211,4.97233,9.54275,19.091,1.27273,60.1323,5.85009,39.8621,1.6576,-0.001655639,0.0300011,379,0.831241
2026/1/16,1.654,3.06827,1.653,6.57046,4.96577,9.53089,19.064,1.27092,60.1541,5.858,39.8409,1.6556,-0.001599248,0.028621,381,0.830236
2026/1/18,1.652,3.11167,1.64845,6.55515,4.94577,9.4929,18.979,1.26526,60.1711,5.86667,39.8126,1.6524,-0.001544361,0.0272683,383,0.828227
2026/1/20,1.647,3.16953,1.6451,6.54377,4.92492,9.44681,18.895,1.25966,60.1598,5.83288,39.5593,1.6488,-0.001458647,0.0262989,385,0.826218
2026/1/22,1.643,3.19901,1.64099,6.52927,4.90782,9.41169,18.824,1.25492,60.2657,5.83534,39.9979,1.6446,-0.00142782,0.025902,387,0.823707
2026/1/24,1.642,3.16804,1.64234,6.53095,4.91388,9.43068,18.86,1.25732,60.2764,5.82594,40.0041,1.6422,-0.001357895,0.0256847,389,0.824711
2026/1/25,1.642,3.16804,1.64234,6.52095,4.90888,9.42268,18.82,1.25232,60.8697,5.11383,41.1488,1.6316,-0.002014286,0.028309,390,0.799598